{
  "entry": [
    {
      "id": "1679033641",
      "resource": {
        "active": true,
        "communication": [
          {
            "coding": [
              {
                "id": "dbafba35-4de0-5924-a3fb-491aa1b99e6d",
                "code": "en",
                "system": "urn:ietf:bcp:47"
              }
            ]
          }
        ],
        "gender": "unknown",
        "id": "1679033641",
        "identifier": [
          {
            "system": "http://clienthealth.org",
            "type": {
              "coding": [
                {
                  "id": "c43d55b1-820c-598b-94b2-dbec4db44b9e",
                  "code": "PRN",
                  "system": "http://terminology.hl7.org/CodeSystem/v2-0203"
                }
              ]
            },
            "use": "usual",
            "value": "4657"
          },
          {
            "system": "http://hl7.org/fhir/sid/us-npi",
            "type": {
              "coding": [
                {
                  "id": "e6e3086f-d120-5e5e-8744-6af40a836e8c",
                  "code": "NPI",
                  "system": "http://terminology.hl7.org/CodeSystem/v2-0203"
                }
              ]
            },
            "use": "official",
            "value": "1679033641"
          },
          {
            "id": "sourceId",
            "system": "https://www.icanbwell.com/sourceId",
            "value": "1679033641"
          },
          {
            "id": "uuid",
            "system": "https://www.icanbwell.com/uuid",
            "value": "aa8a8ff8-af25-5878-8cf3-bc74227d44dd"
          }
        ],
        "meta": {
          "security": [
            {
              "code": "client",
              "system": "https://www.icanbwell.com/access",
              "id": "21b6850a-a1fb-5de3-8f69-7962d5394390"
            },
            {
              "code": "client",
              "system": "https://www.icanbwell.com/owner",
              "id": "1642e685-6de9-5bdb-89e8-b62ffe4420eb"
            },
            {
              "code": "client",
              "system": "https://www.icanbwell.com/sourceAssigningAuthority",
              "id": "cea955c4-9b2c-5b0d-8b48-acfd40cabb59"
            }
          ],
          "source": "client",
          "versionId": "2"
        },
        "name": [
          {
            "family": "NAJJAR  MD",
            "given": [
              "SAMER S."
            ],
            "text": "SAMER S. NAJJAR  MD",
            "use": "usual"
          },
          {
            "family": "NAJJAR  MD",
            "given": [
              "SAMER S."
            ],
            "text": "NAJJAR  MD, SAMER S.",
            "use": "usual"
          }
        ],
        "qualification": [
          {
            "code": {
              "coding": [
                {
                  "id": "c80483dd-19aa-5e37-a22c-9ca194885571",
                  "code": "MD",
                  "system": "http://terminology.hl7.org/ValueSet/v2-2.7-030"
                }
              ]
            }
          },
          {
            "code": {
              "coding": [
                {
                  "id": "c80483dd-19aa-5e37-a22c-9ca194885571",
                  "code": "MD",
                  "system": "http://terminology.hl7.org/ValueSet/v2-2.7-030"
                }
              ]
            },
            "issuer": {
              "extension": [
                {
                  "id": "sourceId",
                  "url": "https://www.icanbwell.com/sourceId",
                  "valueString": "Organization/Stanford_Medical_School"
                },
                {
                  "id": "uuid",
                  "url": "https://www.icanbwell.com/uuid",
                  "valueString": "Organization/e72e1b5c-00ca-5961-acb4-2aa7a435c3e5"
                },
                {
                  "id": "sourceAssigningAuthority",
                  "url": "https://www.icanbwell.com/sourceAssigningAuthority",
                  "valueString": "client"
                }
              ],
              "reference": "Organization/Stanford_Medical_School"
            },
            "period": {
              "end": "2021-12-11",
              "start": "1960-01-01"
            }
          }
        ],
        "resourceType": "Practitioner",
        "telecom": [
          {
            "system": "email",
            "use": "work",
            "value": "foo@foo.com"
          }
        ]
      }
    },
    {
      "id": "1679033641-AETNA-Aetna-Elect-Choice--EPO--Aetna-Health-Fund--In",
      "resource": {
        "extension": [
          {
            "extension": [
              {
                "url": "plan",
                "valueReference": {
                  "extension": [
                    {
                      "id": "sourceId",
                      "url": "https://www.icanbwell.com/sourceId",
                      "valueString": "InsurancePlan/AETNA-Aetna-Elect-Choice--EPO--Aetna-Health-Fund--Innovation-He"
                    },
                    {
                      "id": "uuid",
                      "url": "https://www.icanbwell.com/uuid",
                      "valueString": "InsurancePlan/92eb2ca3-db97-51a4-b2f8-ae979d89952e"
                    },
                    {
                      "id": "sourceAssigningAuthority",
                      "url": "https://www.icanbwell.com/sourceAssigningAuthority",
                      "valueString": "client"
                    }
                  ],
                  "reference": "InsurancePlan/AETNA-Aetna-Elect-Choice--EPO--Aetna-Health-Fund--Innovation-He"
                }
              }
            ],
            "url": "https://raw.githubusercontent.com/imranq2/SparkAutoMapper.FHIR/main/StructureDefinition/insurance_plan"
          },
          {
            "url": "foo",
            "valueString": "bar"
          }
        ],
        "id": "1679033641-AETNA-Aetna-Elect-Choice--EPO--Aetna-Health-Fund--In",
        "identifier": [
          {
            "id": "sourceId",
            "system": "https://www.icanbwell.com/sourceId",
            "value": "1679033641-AETNA-Aetna-Elect-Choice--EPO--Aetna-Health-Fund--In"
          },
          {
            "id": "uuid",
            "system": "https://www.icanbwell.com/uuid",
            "value": "557e157c-e63d-59d2-b0a3-32213466843a"
          }
        ],
        "meta": {
          "security": [
            {
              "code": "client",
              "system": "https://www.icanbwell.com/access",
              "id": "21b6850a-a1fb-5de3-8f69-7962d5394390"
            },
            {
              "code": "client",
              "system": "https://www.icanbwell.com/owner",
              "id": "1642e685-6de9-5bdb-89e8-b62ffe4420eb"
            },
            {
              "code": "client",
              "system": "https://www.icanbwell.com/sourceAssigningAuthority",
              "id": "cea955c4-9b2c-5b0d-8b48-acfd40cabb59"
            }
          ],
          "source": "client",
          "versionId": "1"
        },
        "organization": {
          "display": "MWHC",
          "extension": [
            {
              "id": "sourceId",
              "url": "https://www.icanbwell.com/sourceId",
              "valueString": "Organization/MWHC"
            },
            {
              "id": "uuid",
              "url": "https://www.icanbwell.com/uuid",
              "valueString": "Organization/0e938185-905e-52cc-8b70-a9249bd43806"
            },
            {
              "id": "sourceAssigningAuthority",
              "url": "https://www.icanbwell.com/sourceAssigningAuthority",
              "valueString": "client"
            }
          ],
          "reference": "Organization/MWHC",
          "type": "Organization"
        },
        "practitioner": {
          "extension": [
            {
              "id": "sourceId",
              "url": "https://www.icanbwell.com/sourceId",
              "valueString": "Practitioner/1679033641"
            },
            {
              "id": "uuid",
              "url": "https://www.icanbwell.com/uuid",
              "valueString": "Practitioner/aa8a8ff8-af25-5878-8cf3-bc74227d44dd"
            },
            {
              "id": "sourceAssigningAuthority",
              "url": "https://www.icanbwell.com/sourceAssigningAuthority",
              "valueString": "client"
            }
          ],
          "reference": "Practitioner/1679033641"
        },
        "resourceType": "PractitionerRole"
      }
    },
    {
      "id": "1679033641-UF3-UADM",
      "resource": {
        "eligibility": [
          {
            "code": {
              "coding": [
                {
                  "id": "59f21c58-ce49-5d20-b510-7608f08d8f83",
                  "code": "185387006",
                  "display": "New Patient",
                  "system": "http://snomed.info/sct"
                }
              ]
            }
          },
          {
            "code": {
              "coding": [
                {
                  "id": "a27f93f1-8a85-537b-a704-6821eb8c120f",
                  "code": "448337001",
                  "display": "Telehealth Visit",
                  "system": "http://snomed.info/sct"
                }
              ]
            }
          },
          {
            "code": {
              "coding": [
                {
                  "id": "261a4d35-68a4-51ee-8e12-0e319be6bcad",
                  "code": "0 - 100",
                  "display": "0 - 100",
                  "system": "ClientHealth.org"
                }
              ]
            },
            "comment": "Age Group Seen"
          }
        ],
        "id": "1679033641-UF3-UADM",
        "identifier": [
          {
            "id": "sourceId",
            "system": "https://www.icanbwell.com/sourceId",
            "value": "1679033641-UF3-UADM"
          },
          {
            "id": "uuid",
            "system": "https://www.icanbwell.com/uuid",
            "value": "ce37f1c4-0152-5b69-99c5-fef8febe8736"
          }
        ],
        "meta": {
          "security": [
            {
              "code": "client",
              "system": "https://www.icanbwell.com/access",
              "id": "21b6850a-a1fb-5de3-8f69-7962d5394390"
            },
            {
              "code": "client",
              "system": "https://www.icanbwell.com/owner",
              "id": "1642e685-6de9-5bdb-89e8-b62ffe4420eb"
            },
            {
              "code": "client",
              "system": "https://www.icanbwell.com/sourceAssigningAuthority",
              "id": "cea955c4-9b2c-5b0d-8b48-acfd40cabb59"
            }
          ],
          "source": "client",
          "versionId": "1"
        },
        "resourceType": "HealthcareService"
      }
    },
    {
      "id": "4657-3437",
      "resource": {
        "code": [
          {
            "coding": [
              {
                "id": "a570c0a2-5ec8-56b1-9dea-e4cfcae9ed87",
                "code": "doctor",
                "display": "Doctor",
                "system": "http://terminology.hl7.org/CodeSystem/practitioner-role"
              }
            ],
            "text": "Doctor"
          }
        ],
        "healthcareService": [
          {
            "extension": [
              {
                "id": "sourceId",
                "url": "https://www.icanbwell.com/sourceId",
                "valueString": "HealthcareService/1679033641-UF3-UADM"
              },
              {
                "id": "uuid",
                "url": "https://www.icanbwell.com/uuid",
                "valueString": "HealthcareService/ce37f1c4-0152-5b69-99c5-fef8febe8736"
              },
              {
                "id": "sourceAssigningAuthority",
                "url": "https://www.icanbwell.com/sourceAssigningAuthority",
                "valueString": "client"
              }
            ],
            "reference": "HealthcareService/1679033641-UF3-UADM"
          }
        ],
        "id": "4657-3437",
        "identifier": [
          {
            "id": "sourceId",
            "system": "https://www.icanbwell.com/sourceId",
            "value": "4657-3437"
          },
          {
            "id": "uuid",
            "system": "https://www.icanbwell.com/uuid",
            "value": "c330cb68-601c-551f-95c5-948f7590c802"
          }
        ],
        "location": [
          {
            "extension": [
              {
                "id": "sourceId",
                "url": "https://www.icanbwell.com/sourceId",
                "valueString": "Location/UF3-UADM"
              },
              {
                "id": "uuid",
                "url": "https://www.icanbwell.com/uuid",
                "valueString": "Location/9a5d4862-01ac-53bb-b026-78c0ef575037"
              },
              {
                "id": "sourceAssigningAuthority",
                "url": "https://www.icanbwell.com/sourceAssigningAuthority",
                "valueString": "client"
              }
            ],
            "reference": "Location/UF3-UADM"
          }
        ],
        "meta": {
          "security": [
            {
              "code": "client",
              "system": "https://www.icanbwell.com/access",
              "id": "21b6850a-a1fb-5de3-8f69-7962d5394390"
            },
            {
              "code": "client",
              "system": "https://www.icanbwell.com/owner",
              "id": "1642e685-6de9-5bdb-89e8-b62ffe4420eb"
            },
            {
              "code": "client",
              "system": "https://www.icanbwell.com/sourceAssigningAuthority",
              "id": "cea955c4-9b2c-5b0d-8b48-acfd40cabb59"
            }
          ],
          "source": "client",
          "versionId": "1"
        },
        "practitioner": {
          "extension": [
            {
              "id": "sourceId",
              "url": "https://www.icanbwell.com/sourceId",
              "valueString": "Practitioner/1679033641"
            },
            {
              "id": "uuid",
              "url": "https://www.icanbwell.com/uuid",
              "valueString": "Practitioner/aa8a8ff8-af25-5878-8cf3-bc74227d44dd"
            },
            {
              "id": "sourceAssigningAuthority",
              "url": "https://www.icanbwell.com/sourceAssigningAuthority",
              "valueString": "client"
            }
          ],
          "reference": "Practitioner/1679033641"
        },
        "resourceType": "PractitionerRole",
        "specialty": [
          {
            "coding": [
              {
                "id": "b7462854-d155-5dd7-a37e-0725b9f74d8b",
                "code": "Family Medicine",
                "display": "Family Medicine",
                "system": "https://www.http://clienthealth.org/"
              }
            ],
            "text": "Family Medicine"
          },
          {
            "coding": [
              {
                "id": "07110431-abd6-519f-a99f-43eeadaa1aba",
                "code": "207Q00000X",
                "display": "Family Medicine",
                "system": "http://nucc.org/provider-taxonomy"
              }
            ],
            "text": "Family Medicine"
          },
          {
            "coding": [
              {
                "id": "cb2125ad-b545-55bc-9457-288161868a5c",
                "code": "261QP2300X",
                "display": "Primary Care",
                "system": "http://nucc.org/provider-taxonomy"
              }
            ],
            "text": "Primary Care"
          }
        ]
      }
    },
    {
      "id": "AETNA-Aetna-Elect-Choice--EPO--Aetna-Health-Fund--Innovation-He",
      "resource": {
        "id": "AETNA-Aetna-Elect-Choice--EPO--Aetna-Health-Fund--Innovation-He",
        "identifier": [
          {
            "id": "sourceId",
            "system": "https://www.icanbwell.com/sourceId",
            "value": "AETNA-Aetna-Elect-Choice--EPO--Aetna-Health-Fund--Innovation-He"
          },
          {
            "id": "uuid",
            "system": "https://www.icanbwell.com/uuid",
            "value": "92eb2ca3-db97-51a4-b2f8-ae979d89952e"
          }
        ],
        "meta": {
          "security": [
            {
              "code": "client",
              "system": "https://www.icanbwell.com/access",
              "id": "21b6850a-a1fb-5de3-8f69-7962d5394390"
            },
            {
              "code": "client",
              "system": "https://www.icanbwell.com/owner",
              "id": "1642e685-6de9-5bdb-89e8-b62ffe4420eb"
            },
            {
              "code": "client",
              "system": "https://www.icanbwell.com/sourceAssigningAuthority",
              "id": "cea955c4-9b2c-5b0d-8b48-acfd40cabb59"
            }
          ],
          "source": "client",
          "versionId": "1"
        },
        "name": "AETNA-Aetna Elect Choice/ EPO (Aetna Health Fund) Innovation Health: Network Only Plus",
        "ownedBy": {
          "extension": [
            {
              "id": "sourceId",
              "url": "https://www.icanbwell.com/sourceId",
              "valueString": "Organization/AETNA"
            },
            {
              "id": "uuid",
              "url": "https://www.icanbwell.com/uuid",
              "valueString": "Organization/f234b552-7cde-5616-9e2d-e9b3d0d9aea1"
            },
            {
              "id": "sourceAssigningAuthority",
              "url": "https://www.icanbwell.com/sourceAssigningAuthority",
              "valueString": "client"
            }
          ],
          "reference": "Organization/AETNA"
        },
        "plan": [
          {
            "coverageArea": [
              {
                "extension": [
                  {
                    "id": "sourceId",
                    "url": "https://www.icanbwell.com/sourceId",
                    "valueString": "Location/1886535265"
                  },
                  {
                    "id": "uuid",
                    "url": "https://www.icanbwell.com/uuid",
                    "valueString": "Location/bd1993dc-40f3-54a6-ad09-d08e5a823122"
                  },
                  {
                    "id": "sourceAssigningAuthority",
                    "url": "https://www.icanbwell.com/sourceAssigningAuthority",
                    "valueString": "client"
                  }
                ],
                "reference": "Location/1886535265"
              }
            ],
            "identifier": [
              {
                "type": {
                  "coding": [
                    {
                      "id": "cc5da82b-8514-5ba8-bb5a-7a274efd7a96",
                      "code": "XV",
                      "display": "Health Plan",
                      "system": "http://terminology.hl7.org/CodeSystem/v2-0203"
                    }
                  ]
                },
                "value": "Aetna Elect Choice/ EPO (Aetna Health Fund) Innovation Health: Network Only Plus"
              }
            ]
          }
        ],
        "resourceType": "InsurancePlan"
      }
    },
    {
      "id": "MAX-MALX",
      "resource": {
        "code": [
          {
            "coding": [
              {
                "id": "a570c0a2-5ec8-56b1-9dea-e4cfcae9ed87",
                "code": "doctor",
                "system": "http://terminology.hl7.org/CodeSystem/practitioner-role"
              }
            ]
          }
        ],
        "healthcareService": [
          {
            "extension": [
              {
                "id": "sourceId",
                "url": "https://www.icanbwell.com/sourceId",
                "valueString": "HealthcareService/MAX-MALX"
              },
              {
                "id": "uuid",
                "url": "https://www.icanbwell.com/uuid",
                "valueString": "HealthcareService/80d34997-1eed-537c-8bc5-83636c8818ae"
              },
              {
                "id": "sourceAssigningAuthority",
                "url": "https://www.icanbwell.com/sourceAssigningAuthority",
                "valueString": "client"
              }
            ],
            "reference": "HealthcareService/MAX-MALX"
          }
        ],
        "id": "MAX-MALX",
        "identifier": [
          {
            "system": "ClientHealth.org",
            "type": {
              "coding": [
                {
                  "id": "00a5cb8a-ac21-5194-bce1-2e241a1f71cc",
                  "code": "Client Provider-Scheduling ID",
                  "display": "Client Provider-Scheduling ID",
                  "system": "ClientHealth.org"
                }
              ]
            },
            "use": "usual",
            "value": "MAX-MALX"
          },
          {
            "id": "sourceId",
            "system": "https://www.icanbwell.com/sourceId",
            "value": "MAX-MALX"
          },
          {
            "id": "uuid",
            "system": "https://www.icanbwell.com/uuid",
            "value": "80d34997-1eed-537c-8bc5-83636c8818ae"
          }
        ],
        "location": [
          {
            "extension": [
              {
                "id": "sourceId",
                "url": "https://www.icanbwell.com/sourceId",
                "valueString": "Location/MAX-MALX"
              },
              {
                "id": "uuid",
                "url": "https://www.icanbwell.com/uuid",
                "valueString": "Location/80d34997-1eed-537c-8bc5-83636c8818ae"
              },
              {
                "id": "sourceAssigningAuthority",
                "url": "https://www.icanbwell.com/sourceAssigningAuthority",
                "valueString": "client"
              }
            ],
            "reference": "Location/MAX-MALX"
          }
        ],
        "meta": {
          "security": [
            {
              "code": "client",
              "system": "https://www.icanbwell.com/access",
              "id": "21b6850a-a1fb-5de3-8f69-7962d5394390"
            },
            {
              "code": "client",
              "system": "https://www.icanbwell.com/owner",
              "id": "1642e685-6de9-5bdb-89e8-b62ffe4420eb"
            },
            {
              "code": "client",
              "system": "https://www.icanbwell.com/sourceAssigningAuthority",
              "id": "cea955c4-9b2c-5b0d-8b48-acfd40cabb59"
            }
          ],
          "source": "client",
          "versionId": "1"
        },
        "practitioner": {
          "extension": [
            {
              "id": "sourceId",
              "url": "https://www.icanbwell.com/sourceId",
              "valueString": "Practitioner/1679033641"
            },
            {
              "id": "uuid",
              "url": "https://www.icanbwell.com/uuid",
              "valueString": "Practitioner/aa8a8ff8-af25-5878-8cf3-bc74227d44dd"
            },
            {
              "id": "sourceAssigningAuthority",
              "url": "https://www.icanbwell.com/sourceAssigningAuthority",
              "valueString": "client"
            }
          ],
          "reference": "Practitioner/1679033641"
        },
        "resourceType": "PractitionerRole",
        "specialty": [
          {
            "coding": [
              {
                "id": "94ce3d35-5b89-5575-a243-32f99685f2f7",
                "code": "Family Medicine",
                "display": "Family Medicine",
                "system": "ClientHealth.org"
              }
            ],
            "text": "Provider's Primary Specialty"
          },
          {
            "coding": [
              {
                "id": "94ce3d35-5b89-5575-a243-32f99685f2f7",
                "code": "Family Medicine",
                "display": "Family Medicine",
                "system": "ClientHealth.org"
              }
            ],
            "text": "Provider's Primary Specialty Group"
          }
        ]
      }
    },
    {
      "id": "MAX-MALX",
      "resource": {
        "eligibility": [
          {
            "code": {
              "coding": [
                {
                  "id": "536d94a7-8aba-5d10-af8f-f19af6964f6f",
                  "code": "No Limit",
                  "display": "No Limit",
                  "system": "ClientHealth.org"
                }
              ]
            },
            "comment": "Minimum patient age"
          },
          {
            "code": {
              "coding": [
                {
                  "id": "536d94a7-8aba-5d10-af8f-f19af6964f6f",
                  "code": "No Limit",
                  "display": "No Limit",
                  "system": "ClientHealth.org"
                }
              ]
            },
            "comment": "Maximum patient age"
          },
          {
            "code": {
              "coding": [
                {
                  "id": "746f52fe-f3d6-51de-8ec2-84645304989c",
                  "code": "Y",
                  "display": "Y",
                  "system": "ClientHealth.org"
                }
              ]
            },
            "comment": "Accepts Workers Compensation Patients"
          },
          {
            "code": {
              "coding": [
                {
                  "id": "746f52fe-f3d6-51de-8ec2-84645304989c",
                  "code": "Y",
                  "display": "Y",
                  "system": "ClientHealth.org"
                }
              ]
            },
            "comment": "Accepts Auto Accident Patients"
          },
          {
            "code": {
              "coding": [
                {
                  "id": "746f52fe-f3d6-51de-8ec2-84645304989c",
                  "code": "Y",
                  "display": "Y",
                  "system": "ClientHealth.org"
                }
              ]
            },
            "comment": "Video Visit available"
          }
        ],
        "id": "MAX-MALX",
        "identifier": [
          {
            "system": "ClientHealth.org",
            "use": "usual",
            "value": "MAX-MALX"
          },
          {
            "id": "sourceId",
            "system": "https://www.icanbwell.com/sourceId",
            "value": "MAX-MALX"
          },
          {
            "id": "uuid",
            "system": "https://www.icanbwell.com/uuid",
            "value": "80d34997-1eed-537c-8bc5-83636c8818ae"
          }
        ],
        "meta": {
          "security": [
            {
              "code": "client",
              "system": "https://www.icanbwell.com/access",
              "id": "21b6850a-a1fb-5de3-8f69-7962d5394390"
            },
            {
              "code": "client",
              "system": "https://www.icanbwell.com/owner",
              "id": "1642e685-6de9-5bdb-89e8-b62ffe4420eb"
            },
            {
              "code": "client",
              "system": "https://www.icanbwell.com/sourceAssigningAuthority",
              "id": "cea955c4-9b2c-5b0d-8b48-acfd40cabb59"
            }
          ],
          "source": "client",
          "versionId": "1"
        },
        "name": "Primary Care",
        "providedBy": {
          "identifier": {
            "system": "ClientHealth.Org",
            "value": "MAX"
          },
          "type": "Organization"
        },
        "resourceType": "HealthcareService",
        "specialty": [
          {
            "coding": [
              {
                "id": "94ce3d35-5b89-5575-a243-32f99685f2f7",
                "code": "Family Medicine",
                "display": "Family Medicine",
                "system": "ClientHealth.org"
              }
            ],
            "text": "Primary Specialty"
          },
          {
            "coding": [
              {
                "id": "94ce3d35-5b89-5575-a243-32f99685f2f7",
                "code": "Family Medicine",
                "display": "Family Medicine",
                "system": "ClientHealth.org"
              }
            ],
            "text": "Primary Specialty Group"
          }
        ]
      }
    },
    {
      "id": "MWHC",
      "resource": {
        "id": "MWHC",
        "identifier": [
          {
            "type": {
              "coding": [
                {
                  "id": "76152d15-97d3-5037-aca5-a3d5917441f6",
                  "code": "FI",
                  "display": "Facility Id",
                  "system": "http://terminology.hl7.org/CodeSystem/v2-0203"
                }
              ]
            },
            "value": "MWHC"
          },
          {
            "id": "sourceId",
            "system": "https://www.icanbwell.com/sourceId",
            "value": "MWHC"
          },
          {
            "id": "uuid",
            "system": "https://www.icanbwell.com/uuid",
            "value": "0e938185-905e-52cc-8b70-a9249bd43806"
          }
        ],
        "meta": {
          "security": [
            {
              "code": "client",
              "system": "https://www.icanbwell.com/access",
              "id": "21b6850a-a1fb-5de3-8f69-7962d5394390"
            },
            {
              "code": "client",
              "system": "https://www.icanbwell.com/owner",
              "id": "1642e685-6de9-5bdb-89e8-b62ffe4420eb"
            },
            {
              "code": "client",
              "system": "https://www.icanbwell.com/sourceAssigningAuthority",
              "id": "cea955c4-9b2c-5b0d-8b48-acfd40cabb59"
            }
          ],
          "source": "client",
          "versionId": "1"
        },
        "resourceType": "Organization",
        "type": [
          {
            "coding": [
              {
                "id": "b01785b7-5551-54fe-9805-ea3c1253d22f",
                "code": "prov",
                "display": "Healthcare Provider",
                "system": "http://terminology.hl7.org/CodeSystem/organization-type"
              }
            ]
          }
        ]
      }
    },
    {
      "id": "UF3-UADM",
      "resource": {
        "address": {
          "city": "BALTIMORE",
          "line": [
            "33RD STREET PROFESSIONAL BLDG,G",
            "200 EAST 33RD STREET"
          ],
          "postalCode": "21218",
          "state": "MD"
        },
        "id": "UF3-UADM",
        "identifier": [
          {
            "system": "ClientHealth.org",
            "type": {
              "coding": [
                {
                  "id": "76152d15-97d3-5037-aca5-a3d5917441f6",
                  "code": "FI",
                  "display": "Facility ID",
                  "system": "http://terminology.hl7.org/CodeSystem/v2-0203"
                }
              ],
              "text": "Facility ID"
            },
            "value": "UF3"
          },
          {
            "system": "ClientHealth.org",
            "type": {
              "coding": [
                {
                  "id": "32b90942-0441-5adf-9fb6-1a24894bf405",
                  "code": "XX",
                  "display": "Organization Identifier",
                  "system": "http://terminology.hl7.org/CodeSystem/v2-0203"
                }
              ],
              "text": "Organization Identifier"
            },
            "value": "3437"
          },
          {
            "id": "sourceId",
            "system": "https://www.icanbwell.com/sourceId",
            "value": "UF3-UADM"
          },
          {
            "id": "uuid",
            "system": "https://www.icanbwell.com/uuid",
            "value": "9a5d4862-01ac-53bb-b026-78c0ef575037"
          }
        ],
        "meta": {
          "security": [
            {
              "code": "client",
              "system": "https://www.icanbwell.com/access",
              "id": "21b6850a-a1fb-5de3-8f69-7962d5394390"
            },
            {
              "code": "client",
              "system": "https://www.icanbwell.com/owner",
              "id": "1642e685-6de9-5bdb-89e8-b62ffe4420eb"
            },
            {
              "code": "client",
              "system": "https://www.icanbwell.com/sourceAssigningAuthority",
              "id": "cea955c4-9b2c-5b0d-8b48-acfd40cabb59"
            }
          ],
          "source": "client",
          "versionId": "1"
        },
        "name": "UMH 33RD ST PROF BLDG 3RD FL",
        "position": {
          "latitude": 39.32792,
          "longitude": -76.61668
        },
        "resourceType": "Location",
        "status": "active"
      }
    }
  ],
  "resourceType": "Bundle",
  "total": 9,
  "type": "searchset"
}
