{
  "entry": [
    {
      "id": "1275501447",
      "resource": {
        "active": true,
        "communication": [
          {
            "coding": [
              {
                "id": "dbafba35-4de0-5924-a3fb-491aa1b99e6d",
                "code": "en",
                "display": "English",
                "system": "urn:ietf:bcp:47"
              }
            ]
          }
        ],
        "gender": "male",
        "id": "1275501447",
        "identifier": [
          {
            "system": "http://hl7.org/fhir/sid/us-tin",
            "type": {
              "coding": [
                {
                  "id": "709d0658-4b86-5eb3-940d-63a8f6bd6b73",
                  "code": "TAX",
                  "system": "http://terminology.hl7.org/CodeSystem/v2-0203"
                }
              ]
            },
            "use": "official",
            "value": "46-1322238"
          },
          {
            "system": "http://clienthealth.org",
            "type": {
              "coding": [
                {
                  "id": "c43d55b1-820c-598b-94b2-dbec4db44b9e",
                  "code": "PRN",
                  "system": "http://terminology.hl7.org/CodeSystem/v2-0203"
                }
              ]
            },
            "use": "usual",
            "value": "500136"
          },
          {
            "system": "http://hl7.org/fhir/sid/us-npi",
            "type": {
              "coding": [
                {
                  "id": "e6e3086f-d120-5e5e-8744-6af40a836e8c",
                  "code": "NPI",
                  "system": "http://terminology.hl7.org/CodeSystem/v2-0203"
                }
              ]
            },
            "use": "official",
            "value": "1275501447"
          },
          {
            "id": "sourceId",
            "system": "https://www.icanbwell.com/sourceId",
            "value": "1275501447"
          },
          {
            "id": "uuid",
            "system": "https://www.icanbwell.com/uuid",
            "value": "48765a7f-5686-5e7a-9851-ed6a1d09d736"
          }
        ],
        "meta": {
          "security": [
            {
              "code": "client",
              "system": "https://www.icanbwell.com/access",
              "id": "21b6850a-a1fb-5de3-8f69-7962d5394390"
            },
            {
              "code": "client",
              "system": "https://www.icanbwell.com/owner",
              "id": "1642e685-6de9-5bdb-89e8-b62ffe4420eb"
            },
            {
              "code": "client",
              "system": "https://www.icanbwell.com/sourceAssigningAuthority",
              "id": "cea955c4-9b2c-5b0d-8b48-acfd40cabb59"
            }
          ],
          "source": "http://clienthealth.org/provider_headshots",
          "versionId": "1"
        },
        "name": [
          {
            "family": "Cool",
            "given": [
              "JEFFREY",
              "A"
            ],
            "text": "JEFFREY COOL MD",
            "use": "usual"
          }
        ],
        "photo": [
          {
            "contentType": "image/jpg",
            "title": "Practitioner headshot: Jeffrey Cool - 1275501447",
            "url": "https://uep.clienthealth.org/content/uploads/profile_images/Jeffrey-Cool-MPP_jpg.jpg"
          }
        ],
        "qualification": [
          {
            "code": {
              "coding": [
                {
                  "id": "c80483dd-19aa-5e37-a22c-9ca194885571",
                  "code": "MD",
                  "system": "http://terminology.hl7.org/ValueSet/v2-2.7-030"
                }
              ]
            }
          },
          {
            "code": {
              "coding": [
                {
                  "id": "c80483dd-19aa-5e37-a22c-9ca194885571",
                  "code": "MD",
                  "system": "http://terminology.hl7.org/ValueSet/v2-2.7-030"
                }
              ]
            },
            "issuer": {
              "display": "Client Union Memorial Hospital",
              "extension": [
                {
                  "id": "sourceId",
                  "url": "https://www.icanbwell.com/sourceId",
                  "valueString": "Organization/Client-Union-Memorial-Hospital"
                },
                {
                  "id": "uuid",
                  "url": "https://www.icanbwell.com/uuid",
                  "valueString": "Organization/a62fac63-61d3-56d2-a079-a8b379124f73"
                },
                {
                  "id": "sourceAssigningAuthority",
                  "url": "https://www.icanbwell.com/sourceAssigningAuthority",
                  "valueString": "client"
                }
              ],
              "reference": "Organization/Client-Union-Memorial-Hospital"
            },
            "period": {
              "end": "2099-12-31T00:00:00.000Z",
              "start": "1987-01-01T00:00:00.000Z"
            }
          }
        ],
        "resourceType": "Practitioner",
        "telecom": [
          {
            "system": "email",
            "use": "work",
            "value": "jeffrey.cool@direct.client.net"
          }
        ]
      }
    },
    {
      "id": "1275501447-UHG-MMMA",
      "resource": {
        "actor": [
          {
            "extension": [
              {
                "id": "sourceId",
                "url": "https://www.icanbwell.com/sourceId",
                "valueString": "PractitionerRole/1275501447-UHG-MMMA"
              },
              {
                "id": "uuid",
                "url": "https://www.icanbwell.com/uuid",
                "valueString": "PractitionerRole/7967a931-2cbe-58b8-9c8d-7be14edd1440"
              },
              {
                "id": "sourceAssigningAuthority",
                "url": "https://www.icanbwell.com/sourceAssigningAuthority",
                "valueString": "client"
              }
            ],
            "reference": "PractitionerRole/1275501447-UHG-MMMA"
          }
        ],
        "id": "1275501447-UHG-MMMA",
        "identifier": [
          {
            "id": "sourceId",
            "system": "https://www.icanbwell.com/sourceId",
            "value": "1275501447-UHG-MMMA"
          },
          {
            "id": "uuid",
            "system": "https://www.icanbwell.com/uuid",
            "value": "7967a931-2cbe-58b8-9c8d-7be14edd1440"
          }
        ],
        "meta": {
          "security": [
            {
              "code": "client",
              "system": "https://www.icanbwell.com/access",
              "id": "21b6850a-a1fb-5de3-8f69-7962d5394390"
            },
            {
              "code": "client",
              "system": "https://www.icanbwell.com/owner",
              "id": "1642e685-6de9-5bdb-89e8-b62ffe4420eb"
            },
            {
              "code": "client",
              "system": "https://www.icanbwell.com/sourceAssigningAuthority",
              "id": "cea955c4-9b2c-5b0d-8b48-acfd40cabb59"
            }
          ],
          "source": "http://clienthealth.org/provider_appointment_type",
          "versionId": "1"
        },
        "resourceType": "Schedule",
        "serviceType": [
          {
            "coding": [
              {
                "id": "d2c54220-f5a5-5fef-a4bf-02f462ab23ac",
                "code": "LNG",
                "display": "LNG",
                "system": "http://clienthealth.org/appointment-type"
              }
            ],
            "text": "Client Appointment Type"
          },
          {
            "coding": [
              {
                "id": "bb9d7634-0c9e-587a-a9f3-c59348b15f12",
                "code": "EV4",
                "display": "EV4",
                "system": "http://clienthealth.org/appointment-type"
              }
            ],
            "text": "Client Appointment Type"
          },
          {
            "coding": [
              {
                "id": "1ca85247-b391-58b3-9adf-6c45f340c1c6",
                "code": "SHT",
                "display": "SHT",
                "system": "http://clienthealth.org/appointment-type"
              }
            ],
            "text": "Client Appointment Type"
          },
          {
            "coding": [
              {
                "id": "02b5eab5-a884-50e3-9a31-e528b0f94953",
                "code": "ERN",
                "display": "ERN",
                "system": "http://clienthealth.org/appointment-type"
              }
            ],
            "text": "Client Appointment Type"
          },
          {
            "coding": [
              {
                "id": "f53ca44a-3ccf-5e7c-9b40-ff363ba08cc7",
                "code": "PHN",
                "display": "PHN",
                "system": "http://clienthealth.org/appointment-type"
              }
            ],
            "text": "Client Appointment Type"
          },
          {
            "coding": [
              {
                "id": "5fbb26ed-bf4b-514d-b1fd-29735b27c746",
                "code": "PrimaryCare",
                "display": "PrimaryCare",
                "system": "http://clienthealth.org/protocol"
              }
            ],
            "text": "Client Protocol Departments"
          }
        ]
      }
    },
    {
      "id": "1275501447-UHG-MMMA",
      "resource": {
        "code": [
          {
            "coding": [
              {
                "id": "a570c0a2-5ec8-56b1-9dea-e4cfcae9ed87",
                "code": "doctor",
                "system": "http://terminology.hl7.org/CodeSystem/practitioner-role"
              }
            ]
          },
          {
            "coding": [
              {
                "id": "a570c0a2-5ec8-56b1-9dea-e4cfcae9ed87",
                "code": "doctor",
                "display": "Doctor",
                "system": "http://terminology.hl7.org/CodeSystem/practitioner-role"
              }
            ],
            "text": "Doctor"
          }
        ],
        "healthcareService": [
          {
            "extension": [
              {
                "id": "sourceId",
                "url": "https://www.icanbwell.com/sourceId",
                "valueString": "HealthcareService/1275501447-UHG-MMMA"
              },
              {
                "id": "uuid",
                "url": "https://www.icanbwell.com/uuid",
                "valueString": "HealthcareService/7967a931-2cbe-58b8-9c8d-7be14edd1440"
              },
              {
                "id": "sourceAssigningAuthority",
                "url": "https://www.icanbwell.com/sourceAssigningAuthority",
                "valueString": "client"
              }
            ],
            "reference": "HealthcareService/1275501447-UHG-MMMA"
          }
        ],
        "id": "1275501447-UHG-MMMA",
        "identifier": [
          {
            "system": "http://clienthealth.org",
            "type": {
              "coding": [
                {
                  "id": "0ca37d31-8d6c-5599-aabe-cda73e1923c5",
                  "code": "Client Provider-Protocol",
                  "display": "Client Provider-Protocol",
                  "system": "http://clienthealth.org"
                }
              ]
            },
            "use": "usual",
            "value": "1275501447-UHG-MMMA"
          },
          {
            "id": "sourceId",
            "system": "https://www.icanbwell.com/sourceId",
            "value": "1275501447-UHG-MMMA"
          },
          {
            "id": "uuid",
            "system": "https://www.icanbwell.com/uuid",
            "value": "7967a931-2cbe-58b8-9c8d-7be14edd1440"
          }
        ],
        "location": [
          {
            "extension": [
              {
                "id": "sourceId",
                "url": "https://www.icanbwell.com/sourceId",
                "valueString": "Location/Client-Alias-UHG-MMMA"
              },
              {
                "id": "uuid",
                "url": "https://www.icanbwell.com/uuid",
                "valueString": "Location/7eda3b8b-16ac-5b12-bc15-d43b28e47512"
              },
              {
                "id": "sourceAssigningAuthority",
                "url": "https://www.icanbwell.com/sourceAssigningAuthority",
                "valueString": "client"
              }
            ],
            "reference": "Location/Client-Alias-UHG-MMMA"
          }
        ],
        "meta": {
          "security": [
            {
              "code": "client",
              "system": "https://www.icanbwell.com/access",
              "id": "21b6850a-a1fb-5de3-8f69-7962d5394390"
            },
            {
              "code": "client",
              "system": "https://www.icanbwell.com/owner",
              "id": "1642e685-6de9-5bdb-89e8-b62ffe4420eb"
            },
            {
              "code": "client",
              "system": "https://www.icanbwell.com/sourceAssigningAuthority",
              "id": "cea955c4-9b2c-5b0d-8b48-acfd40cabb59"
            }
          ],
          "source": "http://clienthealth.org/provider",
          "versionId": "1"
        },
        "organization": {
          "extension": [
            {
              "id": "sourceId",
              "url": "https://www.icanbwell.com/sourceId",
              "valueString": "Organization/Client-Alias-UHG-MMMA"
            },
            {
              "id": "uuid",
              "url": "https://www.icanbwell.com/uuid",
              "valueString": "Organization/7eda3b8b-16ac-5b12-bc15-d43b28e47512"
            },
            {
              "id": "sourceAssigningAuthority",
              "url": "https://www.icanbwell.com/sourceAssigningAuthority",
              "valueString": "client"
            }
          ],
          "reference": "Organization/Client-Alias-UHG-MMMA"
        },
        "practitioner": {
          "extension": [
            {
              "id": "sourceId",
              "url": "https://www.icanbwell.com/sourceId",
              "valueString": "Practitioner/1275501447"
            },
            {
              "id": "uuid",
              "url": "https://www.icanbwell.com/uuid",
              "valueString": "Practitioner/48765a7f-5686-5e7a-9851-ed6a1d09d736"
            },
            {
              "id": "sourceAssigningAuthority",
              "url": "https://www.icanbwell.com/sourceAssigningAuthority",
              "valueString": "client"
            }
          ],
          "reference": "Practitioner/1275501447"
        },
        "resourceType": "PractitionerRole",
        "specialty": [
          {
            "coding": [
              {
                "id": "cb2125ad-b545-55bc-9457-288161868a5c",
                "code": "261QP2300X",
                "display": "Primary Care",
                "system": "http://nucc.org/provider-taxonomy"
              }
            ],
            "text": "Primary Care Flag"
          }
        ]
      }
    },
    {
      "id": "1275501447-UHG-MMMA-existing",
      "resource": {
        "end": "2021-11-04T06:00:00.000Z",
        "id": "1275501447-UHG-MMMA-existing",
        "identifier": [
          {
            "id": "sourceId",
            "system": "https://www.icanbwell.com/sourceId",
            "value": "1275501447-UHG-MMMA-existing"
          },
          {
            "id": "uuid",
            "system": "https://www.icanbwell.com/uuid",
            "value": "19831aec-491e-5c74-b377-ba86ac183504"
          }
        ],
        "meta": {
          "source": "client",
          "security": [
            {
              "code": "client",
              "system": "https://www.icanbwell.com/access",
              "id": "21b6850a-a1fb-5de3-8f69-7962d5394390"
            },
            {
              "code": "client",
              "system": "https://www.icanbwell.com/owner",
              "id": "1642e685-6de9-5bdb-89e8-b62ffe4420eb"
            },
            {
              "code": "client",
              "system": "https://www.icanbwell.com/sourceAssigningAuthority",
              "id": "cea955c4-9b2c-5b0d-8b48-acfd40cabb59"
            }
          ],
          "versionId": "1"
        },
        "resourceType": "Slot",
        "status": "busy",
        "schedule": {
          "extension": [
            {
              "id": "sourceId",
              "url": "https://www.icanbwell.com/sourceId",
              "valueString": "Schedule/1275501447-UHG-MMMA"
            },
            {
              "id": "uuid",
              "url": "https://www.icanbwell.com/uuid",
              "valueString": "Schedule/7967a931-2cbe-58b8-9c8d-7be14edd1440"
            },
            {
              "id": "sourceAssigningAuthority",
              "url": "https://www.icanbwell.com/sourceAssigningAuthority",
              "valueString": "client"
            }
          ],
          "reference": "Schedule/1275501447-UHG-MMMA"
        },
        "serviceType": [
          {
            "coding": [
              {
                "id": "d97be5e4-8e83-5919-8ac1-c6f558ccbeb4",
                "code": "EXISTING",
                "system": "http://clienthealth.org"
              }
            ]
          }
        ],
        "start": "2021-11-04T06:00:00.000Z"
      }
    }
  ],
  "resourceType": "Bundle",
  "total": 4,
  "type": "searchset"
}
